Folder: xrd-labs/powder_xrd

File: KDP25_TU75_27112023.txt
    15.0000      3622
    15.1600      3532
    15.3200      3520
    15.4800      3400
    15.6400      3600
    15.8000      3482
    15.9600      3820
    16.1200      4822
    16.2800      7148
    16.4400      9548
    16.6000      4310
    16.7600      4760
    16.9200      4984
    17.0800      4244
    17.2400      5968
    17.4000      6938
    17.5600      3198
    17.7200      3090
    17.8800      3022
    18.0400      3042
    18.2000      2986
    18.3600      2972
    18.5200      2964
    18.6800      2872
    18.8400      2954
    19.0000      2950
    19.1600      2998
    19.3200      2982
    19.4800      2820
    19.6400      3014
    19.8000      3598
    19.9600      5228
    20.1200      6466
    20.2800      4026
    20.4400      5920
    20.6000      6198
    20.7600      6670
    20.9200      9098
    21.0800     13152
    21.2400     27446
    21.4000     16836
    21.5600      5650
    21.7200      3174
    21.8800      2998
    22.0400      2840
    22.2000      3262
    22.3600      3972
    22.5200      3338
    22.6800      2852
    22.8400      2852
    23.0000      3006
    23.1600      3364
    23.3200      5636
    23.4800     15308
    23.6400     16018
    23.8000     10276
    23.9600     10710
    24.1200      3136
    24.2800      3044
    24.4400      3308
    24.6000      5642
    24.7600      5400
    24.9200      2936
    25.0800      2648
    25.2400      2652
    25.4000      2748
    25.5600      3050
    25.7200      2998
    25.8800      3912
    26.0400      5080
    26.2000      5614
    26.3600      5788
    26.5200      2900
    26.6800      2558
    26.8400      2600
    27.0000      2586
    27.1600      2436
    27.3200      2468
    27.4800      2510
    27.6400      2410
    27.8000      2446
    27.9600      2542
    28.1200      2632
    28.2800      3802
    28.4400      5494
    28.6000      4582
    28.7600      2542
    28.9200      2616
    29.0800      3504
    29.2400      7422
    29.4000      9410
    29.5600      7940
    29.7200      3918
    29.8800      2622
    30.0400      2554
    30.2000      3040
    30.3600      3282
    30.5200      4844
    30.6800      8986
    30.8400      5918
    31.0000      3188
    31.1600      3998
    31.3200      2932
    31.4800      2602
    31.6400      3824
    31.8000      6830
    31.9600      6486
    32.1200      4494
    32.2800      2510
    32.4400      2616
    32.6000      2504
    32.7600      2426
    32.9200      3604
    33.0800      3224
    33.2400      2324
    33.4000      2234
    33.5600      2336
    33.7200      2498
    33.8800      3574
    34.0400      4582
    34.2000      2698
    34.3600      2290
    34.5200      2124
    34.6800      2178
    34.8400      2174
    35.0000      3288
    35.1600      4462
    35.3200      3110
    35.4800      2346
    35.6400      3276
    35.8000      3544
    35.9600      2310
    36.1200      2122
    36.2800      2136
    36.4400      2356
    36.6000      3490
    36.7600      7910
    36.9200      6478
    37.0800      2824
    37.2400      2718
    37.4000      2972
    37.5600      2232
    37.7200      2326
    37.8800      2204
    38.0400      2440
    38.2000      2712
    38.3600      3152
    38.5200      2610
    38.6800      2034
    38.8400      2160
    39.0000      2324
    39.1600      2340
    39.3200      2286
    39.4800      1978
    39.6400      2076
    39.8000      2170
    39.9600      2088
    40.1200      2076
    40.2800      2142
    40.4400      2818
    40.6000      5442
    40.7600      4404
    40.9200      2546
    41.0800      2190
    41.2400      2258
    41.4000      2864
    41.5600      4804
    41.7200      4026
    41.8800      3284
    42.0400      3276
    42.2000      3174
    42.3600      2792
    42.5200      2886
    42.6800      2320
    42.8400      1980
    43.0000      2078
    43.1600      2290
    43.3200      3404
    43.4800      3458
    43.6400      2390
    43.8000      2066
    43.9600      2240
    44.1200      2300
    44.2800      2158
    44.4400      2066
    44.6000      2120
    44.7600      2324
    44.9200      2230
    45.0800      2138
    45.2400      2182
    45.4000      2770
    45.5600      3396
    45.7200      4280
    45.8800      3058
    46.0400      2880
    46.2000      3036
    46.3600      4768
    46.5200      4852
    46.6800      2824
    46.8400      2188
    47.0000      2428
    47.1600      3130
    47.3200      2884
    47.4800      3552
    47.6400      4616
    47.8000      3230
    47.9600      2440
    48.1200      2444
    48.2800      2668
    48.4400      2284
    48.6000      2364
    48.7600      2986
    48.9200      3030
    49.0800      2646
    49.2400      2552
    49.4000      2828
    49.5600      2638
    49.7200      2292
    49.8800      2902
    50.0400      2934
    50.2000      3278
    50.3600      2978
    50.5200      3624
    50.6800      4034
    50.8400      3800
    51.0000      2440
    51.1600      2024
    51.3200      1952
    51.4800      2100
    51.6400      2422
    51.8000      2426
    51.9600      2310
    52.1200      2868
    52.2800      3432
    52.4400      2484
    52.6000      2176
    52.7600      2376
    52.9200      2644
    53.0800      2898
    53.2400      2644
    53.4000      2594
    53.5600      2386
    53.7200      2146
    53.8800      2190
    54.0400      2460
    54.2000      3040
    54.3600      3108
    54.5200      2592
    54.6800      2830
    54.8400      2648
    55.0000      2442
    55.1600      2256
    55.3200      2126
    55.4800      2344
    55.6400      2160
    55.8000      2070
    55.9600      2028
    56.1200      1940
    56.2800      1920
    56.4400      2104
    56.6000      2528
    56.7600      2576
    56.9200      2124
    57.0800      1962
    57.2400      1878
    57.4000      1884
    57.5600      2012
    57.7200      2020
    57.8800      2096
    58.0400      1998
    58.2000      1950
    58.3600      2102
    58.5200      2160
    58.6800      2206
    58.8400      2460
    59.0000      2480
    59.1600      2526
    59.3200      3228
    59.4800      2816
    59.6400      2366
    59.8000      2596
    59.9600      2434
    60.0000      2186

File: KDP50_TU50-re1_11122023_clear.txt
    15.0000      3438
    15.2000      3090
    15.4000      3196
    15.6000      3056
    15.8000      3124
    16.0000      3038
    16.2000      3462
    16.4000      5778
    16.6000      5328
    16.8000      3408
    17.0000      3312
    17.2000      3986
    17.4000      8828
    17.6000      3016
    17.8000      2492
    18.0000      2374
    18.2000      2464
    18.4000      2460
    18.6000      2396
    18.8000      2388
    19.0000      2326
    19.2000      2296
    19.4000      2264
    19.6000      2280
    19.8000      2458
    20.0000      3140
    20.2000      3856
    20.4000      2798
    20.6000      3754
    20.8000      3548
    21.0000      4446
    21.2000      6672
    21.4000      9528
    21.6000      3718
    21.8000      2074
    22.0000      2072
    22.2000      2066
    22.4000      2302
    22.6000      2158
    22.8000      2052
    23.0000      2018
    23.2000      2220
    23.4000      3362
    23.6000      8612
    23.8000     13974
    24.0000     12560
    24.2000      2444
    24.4000      2148
    24.6000      2592
    24.8000      2886
    25.0000      1932
    25.2000      1946
    25.4000      1862
    25.6000      1988
    25.8000      1990
    26.0000      2366
    26.2000      2730
    26.4000      3250
    26.6000      1970
    26.8000      1906
    27.0000      1980
    27.2000      1850
    27.4000      1676
    27.6000      1630
    27.8000      1778
    28.0000      1894
    28.2000      1724
    28.4000      2222
    28.6000      2490
    28.8000      1736
    29.0000      1740
    29.2000      2534
    29.4000      5612
    29.6000      5958
    29.8000      3324
    30.0000      1944
    30.2000      2088
    30.4000      2572
    30.6000     12208
    30.8000     15556
    31.0000      3380
    31.2000      2226
    31.4000      1766
    31.6000      1682
    31.8000      2780
    32.0000      3210
    32.2000      2492
    32.4000      1600
    32.6000      1646
    32.8000      1566
    33.0000      2104
    33.2000      1838
    33.4000      1484
    33.6000      1530
    33.8000      2390
    34.0000      5828
    34.2000      3660
    34.4000      1556
    34.6000      1518
    34.8000      1448
    35.0000      1800
    35.2000      3018
    35.4000      2304
    35.6000      1540
    35.8000      1976
    36.0000      1538
    36.2000      1430
    36.4000      1394
    36.6000      1612
    36.8000      3500
    37.0000      4282
    37.2000      1556
    37.4000      1580
    37.6000      1454
    37.8000      1544
    38.0000      1638
    38.2000      2172
    38.4000      3088
    38.6000      2736
    38.8000      1422
    39.0000      1356
    39.2000      1382
    39.4000      1264
    39.6000      1264
    39.8000      1294
    40.0000      1328
    40.2000      1354
    40.4000      1478
    40.6000      2444
    40.8000      3154
    41.0000      1518
    41.2000      1472
    41.4000      1460
    41.6000      1698
    41.8000      2036
    42.0000      1908
    42.2000      1958
    42.4000      1580
    42.6000      1660
    42.8000      1346
    43.0000      1242
    43.2000      1382
    43.4000      2062
    43.6000      1728
    43.8000      1282
    44.0000      1304
    44.2000      1336
    44.4000      1272
    44.6000      1274
    44.8000      1424
    45.0000      1344
    45.2000      1322
    45.4000      1496
    45.6000      1996
    45.8000      3160
    46.0000      3124
    46.2000      2586
    46.4000      5106
    46.6000      6186
    46.8000      1922
    47.0000      1378
    47.2000      1482
    47.4000      1656
    47.6000      2242
    47.8000      2628
    48.0000      1566
    48.2000      1316
    48.4000      1406
    48.6000      1280
    48.8000      1716
    49.0000      1780
    49.2000      1580
    49.4000      1516
    49.6000      1524
    49.8000      1260
    50.0000      1474
    50.2000      1464
    50.4000      1416
    50.6000      1538
    50.8000      1650
    51.0000      1332
    51.2000      1202
    51.4000      1118
    51.6000      1204
    51.8000      1424
    52.0000      1412
    52.2000      1538
    52.4000      1614
    52.6000      1274
    52.8000      1520
    53.0000      1546
    53.2000      1526
    53.4000      1542
    53.6000      1410
    53.8000      1304
    54.0000      1340
    54.2000      1570
    54.4000      1526
    54.6000      1414
    54.8000      1372
    55.0000      2036
    55.2000      2942
    55.4000      1888
    55.6000      1322
    55.8000      1274
    56.0000      1210
    56.2000      1122
    56.4000      1126
    56.6000      1262
    56.8000      1294
    57.0000      1218
    57.2000      1128
    57.4000      1146
    57.6000      1210
    57.8000      1140
    58.0000      1244
    58.2000      1242
    58.4000      1580
    58.6000      1614
    58.8000      2224
    59.0000      1906
    59.2000      1574
    59.4000      1452
    59.6000      1310
    59.8000      1754
    60.0000      1672

File: KDP50_TU50-re2_11122023.txt
    15.0000      3156
    15.2000      3120
    15.4000      3052
    15.6000      3032
    15.8000      3108
    16.0000      3104
    16.2000      3644
    16.4000      6248
    16.6000      3592
    16.8000      3326
    17.0000      3042
    17.2000      4454
    17.4000      5808
    17.6000      2672
    17.8000      2444
    18.0000      2482
    18.2000      2334
    18.4000      2300
    18.6000      2354
    18.8000      2322
    19.0000      2330
    19.2000      2264
    19.4000      2184
    19.6000      2278
    19.8000      2436
    20.0000      3216
    20.2000      3720
    20.4000      2844
    20.6000      3718
    20.8000      3694
    21.0000      4220
    21.2000      7644
    21.4000      8134
    21.6000      2798
    21.8000      2068
    22.0000      1980
    22.2000      2140
    22.4000      2402
    22.6000      2118
    22.8000      1818
    23.0000      1968
    23.2000      2246
    23.4000      4090
    23.6000      9382
    23.8000     12808
    24.0000     11936
    24.2000      2358
    24.4000      2086
    24.6000      2722
    24.8000      2856
    25.0000      1930
    25.2000      1834
    25.4000      1838
    25.6000      2004
    25.8000      1990
    26.0000      2474
    26.2000      2946
    26.4000      2638
    26.6000      1798
    26.8000      2010
    27.0000      1908
    27.2000      1736
    27.4000      1642
    27.6000      1660
    27.8000      1768
    28.0000      1816
    28.2000      1886
    28.4000      2366
    28.6000      3374
    28.8000      1786
    29.0000      1810
    29.2000      2696
    29.4000      4536
    29.6000      5868
    29.8000      2842
    30.0000      1860
    30.2000      2192
    30.4000      2964
    30.6000      9002
    30.8000     11232
    31.0000      2168
    31.2000      2010
    31.4000      1522
    31.6000      1852
    31.8000      3114
    32.0000      3334
    32.2000      2048
    32.4000      1568
    32.6000      1572
    32.8000      1684
    33.0000      2012
    33.2000      1646
    33.4000      1546
    33.6000      1698
    33.8000      2396
    34.0000      5304
    34.2000      2084
    34.4000      1542
    34.6000      1424
    34.8000      1412
    35.0000      1954
    35.2000      3180
    35.4000      1822
    35.6000      1628
    35.8000      1730
    36.0000      1450
    36.2000      1358
    36.4000      1388
    36.6000      1924
    36.8000      3088
    37.0000      1946
    37.2000      1490
    37.4000      1702
    37.6000      1398
    37.8000      1418
    38.0000      2008
    38.2000      2208
    38.4000      4578
    38.6000      3872
    38.8000      1368
    39.0000      1394
    39.2000      1358
    39.4000      1238
    39.6000      1300
    39.8000      1268
    40.0000      1294
    40.2000      1328
    40.4000      1498
    40.6000      2580
    40.8000      2430
    41.0000      1572
    41.2000      1346
    41.4000      1442
    41.6000      1858
    41.8000      2086
    42.0000      2110
    42.2000      1888
    42.4000      1560
    42.6000      1506
    42.8000      1232
    43.0000      1206
    43.2000      1372
    43.4000      1870
    43.6000      1530
    43.8000      1278
    44.0000      1394
    44.2000      1332
    44.4000      1250
    44.6000      1326
    44.8000      1324
    45.0000      1284
    45.2000      1430
    45.4000      2204
    45.6000      3494
    45.8000      2880
    46.0000      2028
    46.2000      2470
    46.4000      7056
    46.6000     14576
    46.8000      2966
    47.0000      1468
    47.2000      1860
    47.4000      1806
    47.6000      2532
    47.8000      1986
    48.0000      1490
    48.2000      1468
    48.4000      1488
    48.6000      1374
    48.8000      1594
    49.0000      1962
    49.2000      1470
    49.4000      1428
    49.6000      1266
    49.8000      1332
    50.0000      1374
    50.2000      1512
    50.4000      1476
    50.6000      1844
    50.8000      1554
    51.0000      1228
    51.2000      1144
    51.4000      1162
    51.6000      1266
    51.8000      1256
    52.0000      1314
    52.2000      1670
    52.4000      1580
    52.6000      1208
    52.8000      1334
    53.0000      1416
    53.2000      1444
    53.4000      1368
    53.6000      1340
    53.8000      1238
    54.0000      1384
    54.2000      1476
    54.4000      1414
    54.6000      1274
    54.8000      1536
    55.0000      2128
    55.2000      1962
    55.4000      1328
    55.6000      1304
    55.8000      1196
    56.0000      1152
    56.2000      1100
    56.4000      1168
    56.6000      1290
    56.8000      1390
    57.0000      1168
    57.2000      1090
    57.4000      1176
    57.6000      1182
    57.8000      1130
    58.0000      1190
    58.2000      1384
    58.4000      2012
    58.6000      1710
    58.8000      2384
    59.0000      1888
    59.2000      1354
    59.4000      1278
    59.6000      1448
    59.8000      1656
    60.0000      1310

File: KDP75_TU25_27112023_clear.txt
    15.0000      3158
    15.1600      2842
    15.3200      2730
    15.4800      2670
    15.6400      2858
    15.8000      2788
    15.9600      2780
    16.1200      2916
    16.2800      3570
    16.4400      5662
    16.6000      3486
    16.7600      2870
    16.9200      3228
    17.0800      2954
    17.2400      4270
    17.4000      7052
    17.5600      4136
    17.7200      2402
    17.8800      2184
    18.0400      2226
    18.2000      2176
    18.3600      2086
    18.5200      2134
    18.6800      2140
    18.8400      2138
    19.0000      2168
    19.1600      2176
    19.3200      2096
    19.4800      2110
    19.6400      2090
    19.8000      2098
    19.9600      2636
    20.1200      4624
    20.2800      3260
    20.4400      2686
    20.6000      3712
    20.7600      2998
    20.9200      4242
    21.0800      3966
    21.2400      8136
    21.4000     10920
    21.5600      4564
    21.7200      1956
    21.8800      1916
    22.0400      1886
    22.2000      1880
    22.3600      2180
    22.5200      2088
    22.6800      1824
    22.8400      1834
    23.0000      1858
    23.1600      1998
    23.3200      2376
    23.4800      4684
    23.6400      8738
    23.8000     17252
    23.9600     19334
    24.1200      3326
    24.2800      2148
    24.4400      1940
    24.6000      2334
    24.7600      2760
    24.9200      2140
    25.0800      1746
    25.2400      1684
    25.4000      1688
    25.5600      1816
    25.7200      1810
    25.8800      1760
    26.0400      2274
    26.2000      2448
    26.3600      2768
    26.5200      2016
    26.6800      1624
    26.8400      1776
    27.0000      1768
    27.1600      1660
    27.3200      1538
    27.4800      1560
    27.6400      1572
    27.8000      1632
    27.9600      1634
    28.1200      1564
    28.2800      1764
    28.4400      2270
    28.6000      2112
    28.7600      1718
    28.9200      1614
    29.0800      1698
    29.2400      2538
    29.4000      3970
    29.5600      5338
    29.7200      5276
    29.8800      3026
    30.0400      1732
    30.2000      1882
    30.3600      2038
    30.5200      3712
    30.6800     10448
    30.8400     15500
    31.0000      3298
    31.1600      2172
    31.3200      2066
    31.4800      1542
    31.6400      1690
    31.8000      2784
    31.9600      2982
    32.1200      2370
    32.2800      1752
    32.4400      1622
    32.6000      1622
    32.7600      1422
    32.9200      1726
    33.0800      1876
    33.2400      1502
    33.4000      1404
    33.5600      1404
    33.7200      1608
    33.8800      2684
    34.0400      4744
    34.2000      2664
    34.3600      1486
    34.5200      1320
    34.6800      1292
    34.8400      1276
    35.0000      1488
    35.1600      3156
    35.3200      4148
    35.4800      1702
    35.6400      1438
    35.8000      1732
    35.9600      1340
    36.1200      1210
    36.2800      1252
    36.4400      1218
    36.6000      1418
    36.7600      2626
    36.9200      2732
    37.0800      1566
    37.2400      1280
    37.4000      1456
    37.5600      1298
    37.7200      1258
    37.8800      1292
    38.0400      1514
    38.2000      2092
    38.3600      2512
    38.5200      3422
    38.6800      1816
    38.8400      1222
    39.0000      1278
    39.1600      1276
    39.3200      1162
    39.4800      1158
    39.6400      1136
    39.8000      1122
    39.9600      1192
    40.1200      1120
    40.2800      1128
    40.4400      1246
    40.6000      2120
    40.7600      2626
    40.9200      1504
    41.0800      1242
    41.2400      1322
    41.4000      1324
    41.5600      1596
    41.7200      2000
    41.8800      2342
    42.0400      1690
    42.2000      3086
    42.3600      2778
    42.5200      1510
    42.6800      1312
    42.8400      1116
    43.0000      1092
    43.1600      1164
    43.3200      1424
    43.4800      1826
    43.6400      1422
    43.8000      1172
    43.9600      1130
    44.1200      1162
    44.2800      1198
    44.4400      1178
    44.6000      1190
    44.7600      1248
    44.9200      1312
    45.0800      1236
    45.2400      1170
    45.4000      1320
    45.5600      1848
    45.7200      3490
    45.8800      3222
    46.0400      1828
    46.2000      1814
    46.3600      4252
    46.5200      9526
    46.6800      4696
    46.8400      1536
    47.0000      1164
    47.1600      1450
    47.3200      1490
    47.4800      1534
    47.6400      2264
    47.8000      2284
    47.9600      1402
    48.1200      1242
    48.2800      1224
    48.4400      1164
    48.6000      1200
    48.7600      1450
    48.9200      1996
    49.0800      1508
    49.2400      1274
    49.4000      1238
    49.5600      1314
    49.7200      1208
    49.8800      1188
    50.0400      1236
    50.2000      1288
    50.3600      1280
    50.5200      1288
    50.6800      1488
    50.8400      1444
    51.0000      1136
    51.1600       942
    51.3200      1046
    51.4800      1026
    51.6400      1064
    51.8000      1262
    51.9600      1192
    52.1200      1256
    52.2800      1636
    52.4400      1406
    52.6000      1038
    52.7600      1164
    52.9200      1174
    53.0800      1254
    53.2400      1244
    53.4000      1198
    53.5600      1154
    53.7200      1150
    53.8800      1168
    54.0400      1278
    54.2000      1364
    54.3600      1410
    54.5200      1246
    54.6800      1168
    54.8400      1344
    55.0000      3220
    55.1600      3298
    55.3200      1650
    55.4800      1302
    55.6400      1270
    55.8000      1080
    55.9600      1068
    56.1200      1024
    56.2800      1018
    56.4400       950
    56.6000      1126
    56.7600      1216
    56.9200      1162
    57.0800      1010
    57.2400      1008
    57.4000      1016
    57.5600      1014
    57.7200       974
    57.8800      1138
    58.0400      1104
    58.2000      1136
    58.3600      1834
    58.5200      2992
    58.6800      2104
    58.8400      2182
    59.0000      2274
    59.1600      1528
    59.3200      1212
    59.4800      1100
    59.6400      1208
    59.8000      1542
    59.9600      1504
    60.0000      1398